Folder: SMA_REACT/output

File: DSC.csv
,Step,Time,Unsubtracted HeatFlow,Baseline HeatFlow,Program Temperature,Sample Temperature,Approx. GasFlow
0,1,0.0,16.8549,0.0,110.0,94.633,0.0
27,1,0.45,-339.214,0.0,110.0,107.619,0.0
54,1,0.9,-339.409,0.0,110.0,107.629,0.0
81,1,1.35,-339.388,0.0,110.0,107.636,0.0
108,1,1.8,-339.371,0.0,110.0,107.639,0.0
135,2,2.25,-345.798,1.322185,107.495,105.881,0.0
162,2,2.7,-345.488,2.102683,102.995,101.346,0.0
189,2,3.15,-344.718,2.862414,98.495,96.804,0.0
216,2,3.6,-343.959,3.613768,93.995,92.259,0.0
243,2,4.05,-343.233,4.353206,89.495,87.707,0.0
270,2,4.5,-342.521,5.067039,84.995,83.159,0.0
297,2,4.95,-341.841,5.780519,80.495,78.608,0.0
324,2,5.4,-341.196,6.483616,75.995,74.057,0.0
351,2,5.85,-340.684,7.180341,71.495,69.498,0.0
378,2,6.3,-340.771,7.865975,66.995,64.948,0.0
405,2,6.75,-342.117,8.539339,62.495,60.398,0.0
432,2,7.2,-344.138,9.203499,57.995,55.852,0.0
459,2,7.65,-343.575,9.857394,53.495,51.3,0.0
486,2,8.1,-344.417,10.4974,48.995,46.753,0.0
513,2,8.55,-347.269,11.1286,44.495,42.218,0.0
540,2,9.0,-350.845,11.7452,39.995,37.696,0.0
567,2,9.45,-355.747,12.3504,35.495,33.183,0.0
594,2,9.9,-342.506,12.9458,30.995,28.634,0.0
621,2,10.35,-337.008,13.5284,26.495,24.107,0.0
648,2,10.8,-334.723,14.0873,21.995,19.603,0.0
675,2,11.25,-333.517,14.6572,17.495,15.102,0.0
702,2,11.7,-332.616,15.2093,12.995,10.608,0.0
729,2,12.15,-331.821,15.7452,8.495,6.117,0.0
756,2,12.6,-331.111,16.278,3.995,1.639,0.0
783,2,13.05,-330.461,16.7974,-0.505,-2.834,0.0
810,2,13.5,-329.855,17.3011,-5.005,-7.297,0.0
837,2,13.95,-329.278,17.7896,-9.505,-11.751,0.0
864,3,14.4,-322.536,17.8239,-10.0,-13.203,0.0
891,3,14.85,-322.382,17.8239,-10.0,-13.206,0.0
918,3,15.3,-322.383,17.8239,-10.0,-13.209,0.0
945,3,15.75,-322.383,17.8239,-10.0,-13.209,0.0
972,4,16.2,-317.396,17.0768,-7.996,-12.073,0.0
999,4,16.65,-316.048,16.3134,-3.496,-7.631,0.0
1026,4,17.1,-316.512,15.7901,1.004,-3.147,0.0
1053,4,17.55,-316.98,15.2685,5.504,1.349,0.0
1080,4,18.0,-317.463,14.7378,10.004,5.848,0.0
1107,4,18.45,-317.947,14.1971,14.504,10.356,0.0
1134,4,18.9,-318.44,13.6435,19.004,14.866,0.0
1161,4,19.35,-318.971,13.0803,23.504,19.381,0.0
1188,4,19.8,-319.456,12.5075,28.004,23.895,0.0
1215,4,20.25,-319.978,11.9181,32.504,28.422,0.0
1242,4,20.7,-320.499,11.3234,37.004,32.952,0.0
1269,4,21.15,-321.014,10.7107,41.504,37.499,0.0
1296,4,21.6,-321.501,10.0857,46.004,42.043,0.0
1323,4,22.05,-321.893,9.445022,50.504,46.595,0.0
1350,4,22.5,-321.871,8.789357,55.004,51.153,0.0
1377,4,22.95,-320.171,8.128265,59.504,55.715,0.0
1404,4,23.4,-312.661,7.455019,64.004,60.261,0.0
1431,4,23.85,-306.11,6.770447,68.504,64.812,0.0
1458,4,24.3,-312.649,6.074784,73.004,69.383,0.0
1485,4,24.75,-315.243,5.367793,77.504,73.954,0.0
1512,4,25.2,-317.554,4.652544,82.004,78.517,0.0
1539,4,25.65,-322.028,3.930687,86.504,83.085,0.0
1566,4,26.1,-324.277,3.193727,91.004,87.644,0.0
1593,4,26.55,-326.678,2.44898,95.504,92.209,0.0
1620,4,27.0,-329.287,1.697036,100.004,96.763,0.0
1647,4,27.45,-330.609,0.92999,104.504,101.317,0.0
1674,4,27.9,-331.517,0.154212,109.004,105.865,0.0
1701,5,28.35,-339.22,0.010383,110.0,107.625,0.0
1728,5,28.8,-339.295,0.010383,110.0,107.625,0.0
1755,5,29.25,-339.29,0.010383,110.0,107.627,0.0
1782,5,29.7,-339.281,0.010383,110.0,107.628,0.0
1809,6,30.15,-341.589,0.452488,109.245,107.234,0.0
1836,6,30.6,-342.449,0.978483,106.995,104.985,0.0
1863,6,31.05,-342.059,1.353452,104.745,102.713,0.0
1890,6,31.5,-341.679,1.737271,102.495,100.441,0.0
1917,6,31.95,-341.295,2.118847,100.245,98.166,0.0
1944,6,32.4,-340.92,2.495114,97.995,95.893,0.0
1971,6,32.85,-340.543,2.867134,95.745,93.62,0.0
1998,6,33.3,-340.173,3.241749,93.495,91.346,0.0
2025,6,33.75,-339.81,3.611408,91.245,89.068,0.0
2052,6,34.2,-339.436,3.98213,88.995,86.792,0.0
2079,6,34.65,-339.073,4.343766,86.745,84.519,0.0
2106,6,35.1,-338.718,4.712128,84.495,82.242,0.0
2133,6,35.55,-338.363,5.074591,82.245,79.963,0.0
2160,6,36.0,-338.016,5.427968,79.995,77.685,0.0
2187,6,36.45,-337.681,5.783469,77.745,75.406,0.0
2214,6,36.9,-337.359,6.128115,75.495,73.129,0.0
2241,6,37.35,-337.067,6.468985,73.245,70.849,0.0
2268,6,37.8,-336.8,6.811743,70.995,68.572,0.0
2295,6,38.25,-336.617,7.157805,68.745,66.296,0.0
2322,6,38.7,-336.581,7.495018,66.495,64.016,0.0
2349,6,39.15,-336.745,7.825859,64.245,61.737,0.0
2376,6,39.6,-337.071,8.16319,61.995,59.462,0.0
2403,6,40.05,-337.642,8.495211,59.745,57.184,0.0
2430,6,40.5,-337.434,8.82558,57.495,54.905,0.0
2457,6,40.95,-337.139,9.150876,55.245,52.627,0.0
2484,6,41.4,-336.982,9.472868,52.995,50.35,0.0
2511,6,41.85,-337.007,9.793916,50.745,48.076,0.0
2538,6,42.3,-337.401,10.1118,48.495,45.803,0.0
2565,6,42.75,-337.978,10.4268,46.245,43.53,0.0
2592,6,43.2,-338.585,10.7349,43.995,41.263,0.0
2619,6,43.65,-339.393,11.0413,41.745,38.992,0.0
2646,6,44.1,-340.785,11.3494,39.495,36.727,0.0
2673,6,44.55,-342.341,11.653,37.245,34.464,0.0
2700,6,45.0,-339.774,11.9506,34.995,32.198,0.0
2727,6,45.45,-335.984,12.246,32.745,29.928,0.0
2754,6,45.9,-333.897,12.5418,30.495,27.662,0.0
2781,6,46.35,-332.507,12.8346,28.245,25.398,0.0
2808,6,46.8,-331.545,13.1206,25.995,23.14,0.0
2835,6,47.25,-330.837,13.4046,23.745,20.885,0.0
2862,6,47.7,-330.277,13.6837,21.495,18.637,0.0
2889,6,48.15,-329.833,13.9644,19.245,16.38,0.0
2916,6,48.6,-329.4348,14.2436,16.995,14.129,0.0
2943,6,49.05,-329.074,14.5143,14.745,11.88,0.0
2970,6,49.5,-328.7284,14.7871,12.495,9.629,0.0
2997,6,49.95,-328.396,15.056,10.245,7.381,0.0
3024,6,50.4,-328.077,15.3256,7.995,5.136,0.0
3051,6,50.85,-327.773,15.5881,5.745,2.894,0.0
3078,6,51.3,-327.479,15.8489,3.495,0.646,0.0
3105,6,51.75,-327.19,16.1039,1.245,-1.595,0.0
3132,6,52.2,-326.906,16.3585,-1.005,-3.83,0.0
3159,6,52.65,-326.631,16.6126,-3.255,-6.065,0.0
3186,6,53.1,-326.362,16.86,-5.505,-8.301,0.0
3213,6,53.55,-326.099,17.1011,-7.755,-10.533,0.0
3240,7,54.0,-325.81,17.3321,-10.0,-12.761,0.0
3267,7,54.45,-322.436,17.3321,-10.0,-13.229,0.0
3294,7,54.9,-322.399,17.3321,-10.0,-13.229,0.0
3321,7,55.35,-322.399,17.3321,-10.0,-13.231,0.0
3348,7,55.8,-322.401,17.3321,-10.0,-13.232,0.0
3375,8,56.25,-319.535,16.8499,-8.746,-12.428,0.0
3402,8,56.7,-319.291,16.55162,-6.496,-10.203,0.0
3429,8,57.15,-319.525,16.2992,-4.246,-7.965,0.0
3456,8,57.6,-319.767,16.0443,-1.996,-5.726,0.0
3483,8,58.05,-320.008,15.7879,0.254,-3.487,0.0
3510,8,58.5,-320.254,15.5277,2.504,-1.243,0.0
3537,8,58.95,-320.501,15.2625,4.754,1.007,0.0
3564,8,59.4,-320.749,14.9983,7.004,3.254,0.0
3591,8,59.85,-320.997,14.7341,9.254,5.502,0.0
3618,8,60.3,-321.255,14.4656,11.504,7.751,0.0
3645,8,60.75,-321.512,14.1921,13.754,10.005,0.0
3672,8,61.2,-321.775,13.9143,16.004,12.26,0.0
3699,8,61.65,-322.033,13.635,18.254,14.514,0.0
3726,8,62.1,-322.3,13.3562,20.504,16.77,0.0
3753,8,62.55,-322.57,13.0758,22.754,19.032,0.0
3780,8,63.0,-322.841,12.7936,25.004,21.277,0.0
3807,8,63.45,-323.111,12.5001,27.254,23.537,0.0
3834,8,63.9,-323.384,12.2139,29.504,25.797,0.0
3861,8,64.35,-323.659,11.92114,31.754,28.062,0.0
3888,8,64.8,-323.937,11.6253,34.004,30.325,0.0
3915,8,65.25,-324.216,11.3218,36.254,32.591,0.0
3942,8,65.7,-324.494,11.0206,38.504,34.857,0.0
3969,8,66.15,-324.77,10.7187,40.754,37.128,0.0
3996,8,66.6,-325.047,10.4115,43.004,39.405,0.0
4023,8,67.05,-325.314,10.1003,45.254,41.675,0.0
4050,8,67.5,-325.573,9.784123,47.504,43.948,0.0
4077,8,67.95,-325.813,9.472986,49.754,46.226,0.0
4104,8,68.4,-325.998,9.155831,52.004,48.502,0.0
4131,8,68.85,-326.09,8.831125,54.254,50.78,0.0
4158,8,69.3,-325.96,8.501818,56.504,53.06,0.0
4185,8,69.75,-325.378,8.167201,58.754,55.34,0.0
4212,8,70.2,-323.865,7.834472,61.004,57.621,0.0
4239,8,70.65,-321.259,7.501979,63.254,59.893,0.0
4266,8,71.1,-319.034,7.163586,65.504,62.168,0.0
4293,8,71.55,-319.428,6.821772,67.754,64.45,0.0
4320,8,72.0,-321.627,6.473115,70.004,66.736,0.0
4347,8,72.45,-323.377,6.132952,72.254,69.019,0.0
4374,8,72.9,-324.236,5.780755,74.504,71.299,0.0
4401,8,73.35,-324.586,5.433395,76.754,73.581,0.0
4428,8,73.8,-325.065,5.076714,79.004,75.867,0.0
4455,8,74.25,-326.24,4.719915,81.254,78.147,0.0
4482,8,74.7,-327.643,4.359577,83.504,80.428,0.0
4509,8,75.15,-328.705,3.994637,85.754,82.709,0.0
4536,8,75.6,-329.479,3.632293,88.004,84.989,0.0
4563,8,76.05,-330.154,3.264285,90.254,87.265,0.0
4590,8,76.5,-330.948,2.894507,92.504,89.545,0.0
4617,8,76.95,-331.872,2.525673,94.754,91.824,0.0
4644,8,77.4,-332.754,2.150586,97.004,94.102,0.0
4671,8,77.85,-333.43,1.770308,99.254,96.381,0.0
4698,8,78.3,-333.946,1.39463,101.504,98.654,0.0
4725,8,78.75,-334.39,1.013998,103.754,100.931,0.0
4752,8,79.2,-334.812,0.629707,106.004,103.207,0.0
4779,8,79.65,-335.213,0.242703,108.254,105.481,0.0
4806,8,80.1,-335.614,-0.151852,110.504,107.752,0.0
4833,8,80.55,-336.004,-0.54098,112.754,110.029,0.0
4860,8,81.0,-336.397,-0.933883,115.004,112.304,0.0
4887,8,81.45,-336.782,-1.33186,117.254,114.582,0.0
4914,8,81.9,-337.176,-1.731725,119.504,116.853,0.0
4941,8,82.35,-337.572,-2.134422,121.754,119.129,0.0
4968,8,82.8,-337.972,-2.538062,124.004,121.402,0.0
4995,8,83.25,-338.387,-2.947248,126.254,123.672,0.0
5022,8,83.7,-338.79,-3.352776,128.504,125.942,0.0
5049,8,84.15,-339.201,-3.761844,130.754,128.217,0.0
5076,8,84.6,-339.611,-4.17339,133.004,130.491,0.0
5103,8,85.05,-340.023,-4.58529,135.254,132.763,0.0
5130,8,85.5,-340.434,-5.004387,137.504,135.037,0.0
5157,8,85.95,-340.856,-5.423248,139.754,137.31,0.0
5184,8,86.4,-341.275,-5.839277,142.004,139.583,0.0
5211,8,86.85,-341.695,-6.263094,144.254,141.854,0.0
5238,8,87.3,-342.121,-6.690214,146.504,144.125,0.0
5265,8,87.75,-342.551,-7.117807,148.754,146.396,0.0
5279,8,87.9833,-342.771,-7.343402,149.92,147.575,0.0